	ÉÇÅ[Éh	é¸îgêî [Hz]	
1	1.	1852.3	
2	2.	1852.3	
3	3.	2085.5	
4	4.	2085.5	
5	5.	3443.	
6	6.	3443.	
7	7.	3510.7	
8	8.	3510.7	
9	9.	4742.2	
10	10.	4742.2	
11	11.	5188.2	
12	12.	5188.2	
13	13.	5514.2	
14	14.	5514.2	
15	15.	5797.	
16	16.	5956.5	
17	17.	5956.5	
18	18.	6796.2	
